STUDYID,DOMAIN,USUBJID,SUBJID,SITEID,RFICDTC,RFSTDTC,RFPENDTC,AGE,AGEU,SEX,RACE,ETHNIC,ARMCD,ARM,COUNTRY,DTHFL,DTHDTC,source_ecrf_form,source_document_id,demo_issue_tag
KLIN-ONC-DEMO-001,DM,SUBJ001,1,101,2025-12-20,2026-01-04,2026-12-06,62,YEARS,M,WHITE,NOT HISPANIC OR LATINO,KLIN201,KLIN-201 200 mg IV Q3W,USA,,,Demographics / Screening,MDNOTE-SUBJ001-SCR,
KLIN-ONC-DEMO-001,DM,SUBJ002,2,101,2025-12-22,2026-01-06,2026-12-08,55,YEARS,F,ASIAN,NOT HISPANIC OR LATINO,KLIN201,KLIN-201 200 mg IV Q3W,USA,,,Demographics / Screening,MDNOTE-SUBJ002-SCR,
KLIN-ONC-DEMO-001,DM,SUBJ003,3,102,2025-12-23,2026-01-07,2026-12-09,68,YEARS,M,BLACK OR AFRICAN AMERICAN,NOT HISPANIC OR LATINO,KLIN201,KLIN-201 200 mg IV Q3W,USA,,,Demographics / Screening,MDNOTE-SUBJ003-SCR,
KLIN-ONC-DEMO-001,DM,SUBJ004,4,102,2025-12-25,2026-01-09,2026-12-11,47,YEARS,F,WHITE,HISPANIC OR LATINO,KLIN201,KLIN-201 200 mg IV Q3W,USA,,,Demographics / Screening,MDNOTE-SUBJ004-SCR,
KLIN-ONC-DEMO-001,DM,SUBJ005,5,103,2025-12-27,2026-01-11,2026-12-13,59,YEARS,M,ASIAN,NOT HISPANIC OR LATINO,KLIN201,KLIN-201 200 mg IV Q3W,USA,,,Demographics / Screening,MDNOTE-SUBJ005-SCR,
